#temperature (K)# #Gibbs free energy (kJ / mol)#
100.0 -341056.048786
110.0 -341057.926728
120.0 -341059.833843
130.0 -341061.767493
140.0 -341063.725455
150.0 -341065.705836
160.0 -341067.707009
170.0 -341069.727561
180.0 -341071.766258
190.0 -341073.822012
200.0 -341075.893858
210.0 -341077.980933
220.0 -341080.082463
230.0 -341082.197752
240.0 -341084.326165
250.0 -341086.467127
260.0 -341088.62011
270.0 -341090.784633
280.0 -341092.960251
290.0 -341095.146554
300.0 -341097.343163
310.0 -341099.549727
320.0 -341101.765919
330.0 -341103.991435
340.0 -341106.22599
350.0 -341108.469321
360.0 -341110.721177
370.0 -341112.981326
380.0 -341115.249548
390.0 -341117.525638
400.0 -341119.809401
410.0 -341122.100653
420.0 -341124.399221
430.0 -341126.704941
440.0 -341129.017657
450.0 -341131.337222
460.0 -341133.663495
470.0 -341135.996342
480.0 -341138.335637
490.0 -341140.681258
500.0 -341143.033088
510.0 -341145.391018
520.0 -341147.754941
530.0 -341150.124755
540.0 -341152.500364
550.0 -341154.881672
560.0 -341157.268591
570.0 -341159.661034
580.0 -341162.058917
590.0 -341164.46216
600.0 -341166.870685
610.0 -341169.284418
620.0 -341171.703285
630.0 -341174.127218
640.0 -341176.556149
650.0 -341178.990011
660.0 -341181.42874
670.0 -341183.872276
680.0 -341186.320558
690.0 -341188.773529
700.0 -341191.23113
710.0 -341193.693308
720.0 -341196.160008
730.0 -341198.631179
740.0 -341201.106769
750.0 -341203.58673
760.0 -341206.071012
770.0 -341208.559569
780.0 -341211.052354
790.0 -341213.549322
800.0 -341216.05043
810.0 -341218.555635
820.0 -341221.064895
830.0 -341223.578168
840.0 -341226.095414
850.0 -341228.616594
860.0 -341231.14167
870.0 -341233.670603
880.0 -341236.203358
890.0 -341238.739897
900.0 -341241.280185
910.0 -341243.824187
920.0 -341246.371869
930.0 -341248.923198
940.0 -341251.47814
950.0 -341254.036664
960.0 -341256.598737
970.0 -341259.164329
980.0 -341261.733409
990.0 -341264.305947
1000.0 -341266.881913
1010.0 -341269.461278
1020.0 -341272.044014
1030.0 -341274.630093
1040.0 -341277.219487
1050.0 -341279.812169
1060.0 -341282.408113
1070.0 -341285.007292
1080.0 -341287.60968
1090.0 -341290.215252
1100.0 -341292.823982
1110.0 -341295.435847
1120.0 -341298.050822
1130.0 -341300.668883
1140.0 -341303.290006
1150.0 -341305.914169
1160.0 -341308.541348
1170.0 -341311.171521
1180.0 -341313.804666
1190.0 -341316.440761
1200.0 -341319.079785
1210.0 -341321.721716
1220.0 -341324.366533
1230.0 -341327.014215
1240.0 -341329.664744
1250.0 -341332.318097
1260.0 -341334.974256
1270.0 -341337.633201
1280.0 -341340.294913
1290.0 -341342.959372
1300.0 -341345.626561
1310.0 -341348.29646
1320.0 -341350.969052
1330.0 -341353.644318
1340.0 -341356.32224
1350.0 -341359.002802
1360.0 -341361.685985
1370.0 -341364.371772
1380.0 -341367.060148
1390.0 -341369.751095
1400.0 -341372.444596
1410.0 -341375.140636
1420.0 -341377.839198
1430.0 -341380.540266
1440.0 -341383.243826
1450.0 -341385.94986
1460.0 -341388.658355
1470.0 -341391.369295
1480.0 -341394.082665
1490.0 -341396.798451
1500.0 -341399.516637
1510.0 -341402.237209
1520.0 -341404.960154
1530.0 -341407.685457
1540.0 -341410.413104
1550.0 -341413.143082
1560.0 -341415.875376
1570.0 -341418.609975
1580.0 -341421.346863
1590.0 -341424.086028
1600.0 -341426.827458
1610.0 -341429.571139
1620.0 -341432.317058
1630.0 -341435.065204
1640.0 -341437.815563
1650.0 -341440.568124
1660.0 -341443.322873
1670.0 -341446.0798
1680.0 -341448.838893
1690.0 -341451.600138
1700.0 -341454.363526
1710.0 -341457.129044
1720.0 -341459.896682
1730.0 -341462.666426
1740.0 -341465.438268
1750.0 -341468.212195
1760.0 -341470.988197
1770.0 -341473.766262
1780.0 -341476.546381
1790.0 -341479.328542
1800.0 -341482.112735
1810.0 -341484.89895
1820.0 -341487.687176
1830.0 -341490.477404
1840.0 -341493.269622
1850.0 -341496.063822
1860.0 -341498.859993
1870.0 -341501.658125
1880.0 -341504.458209
1890.0 -341507.260236
1900.0 -341510.064195
1910.0 -341512.870078
1920.0 -341515.677874
1930.0 -341518.487575
1940.0 -341521.299172
1950.0 -341524.112656
1960.0 -341526.928017
1970.0 -341529.745247
1980.0 -341532.564336
1990.0 -341535.385277
2000.0 -341538.208061
2010.0 -341541.032678
2020.0 -341543.859121
2030.0 -341546.687381
2040.0 -341549.51745
2050.0 -341552.349319
2060.0 -341555.182981
2070.0 -341558.018427
2080.0 -341560.855649
2090.0 -341563.69464
2100.0 -341566.535391
2110.0 -341569.377894
2120.0 -341572.222142
2130.0 -341575.068127
2140.0 -341577.915842
2150.0 -341580.765278
2160.0 -341583.616429
2170.0 -341586.469287
2180.0 -341589.323845
2190.0 -341592.180095
2200.0 -341595.03803
2210.0 -341597.897643
2220.0 -341600.758927
2230.0 -341603.621875
2240.0 -341606.486479
2250.0 -341609.352733
2260.0 -341612.220631
2270.0 -341615.090164
2280.0 -341617.961327
2290.0 -341620.834112
2300.0 -341623.708514
2310.0 -341626.584525
2320.0 -341629.462139
2330.0 -341632.341349
2340.0 -341635.222149
2350.0 -341638.104533
2360.0 -341640.988493
2370.0 -341643.874025
2380.0 -341646.761122
2390.0 -341649.649777
2400.0 -341652.539984
2410.0 -341655.431737
2420.0 -341658.325031
2430.0 -341661.219859
2440.0 -341664.116215
2450.0 -341667.014094
2460.0 -341669.913489
2470.0 -341672.814395
2480.0 -341675.716805
2490.0 -341678.620715
2500.0 -341681.526118
2510.0 -341684.43301
2520.0 -341687.341383
2530.0 -341690.251233
2540.0 -341693.162555
2550.0 -341696.075342
2560.0 -341698.989589
2570.0 -341701.905291
2580.0 -341704.822443
2590.0 -341707.741039
2600.0 -341710.661074
2610.0 -341713.582543
2620.0 -341716.50544
2630.0 -341719.42976
2640.0 -341722.355499
2650.0 -341725.282651
2660.0 -341728.211211
2670.0 -341731.141174
2680.0 -341734.072536
2690.0 -341737.00529
2700.0 -341739.939433
2710.0 -341742.874959
2720.0 -341745.811864
2730.0 -341748.750142
2740.0 -341751.689789
2750.0 -341754.630801
2760.0 -341757.573172
2770.0 -341760.516898
2780.0 -341763.461975
2790.0 -341766.408397
2800.0 -341769.35616
2810.0 -341772.305259
2820.0 -341775.25569
2830.0 -341778.207449
2840.0 -341781.160531
2850.0 -341784.114932
2860.0 -341787.070647
2870.0 -341790.027672
2880.0 -341792.986002
2890.0 -341795.945634
2900.0 -341798.906562
2910.0 -341801.868783
2920.0 -341804.832293
2930.0 -341807.797087
2940.0 -341810.763161
2950.0 -341813.730511
2960.0 -341816.699133
2970.0 -341819.669023
2980.0 -341822.640177
2990.0 -341825.61259
3000.0 -341828.586259
3010.0 -341831.56118
3020.0 -341834.537348
3030.0 -341837.51476
3040.0 -341840.493413
