#temperature (K)# #Gibbs free energy (kJ / mol)#
100.0 -200690.67619
110.0 -200692.332348
120.0 -200694.018827
130.0 -200695.7331
140.0 -200697.473026
150.0 -200699.236773
160.0 -200701.022751
170.0 -200702.829573
180.0 -200704.656013
190.0 -200706.500983
200.0 -200708.36351
210.0 -200710.242719
220.0 -200712.13782
230.0 -200714.048096
240.0 -200715.972892
250.0 -200717.91161
260.0 -200719.863703
270.0 -200721.828665
280.0 -200723.80603
290.0 -200725.795367
300.0 -200727.796276
310.0 -200729.808386
320.0 -200731.831351
330.0 -200733.864848
340.0 -200735.908574
350.0 -200737.962246
360.0 -200740.025599
370.0 -200742.098384
380.0 -200744.180365
390.0 -200746.27132
400.0 -200748.37104
410.0 -200750.479326
420.0 -200752.59599
430.0 -200754.720855
440.0 -200756.853751
450.0 -200758.994516
460.0 -200761.142997
470.0 -200763.299048
480.0 -200765.462528
490.0 -200767.633305
500.0 -200769.811249
510.0 -200771.99624
520.0 -200774.188158
530.0 -200776.386892
540.0 -200778.592333
550.0 -200780.804377
560.0 -200783.022924
570.0 -200785.247877
580.0 -200787.479144
590.0 -200789.716635
600.0 -200791.960264
610.0 -200794.209947
620.0 -200796.465604
630.0 -200798.727157
640.0 -200800.994531
650.0 -200803.267652
660.0 -200805.546452
670.0 -200807.83086
680.0 -200810.120812
690.0 -200812.416243
700.0 -200814.717091
710.0 -200817.023296
720.0 -200819.334799
730.0 -200821.651543
740.0 -200823.973474
750.0 -200826.300538
760.0 -200828.632682
770.0 -200830.969856
780.0 -200833.312011
790.0 -200835.659098
800.0 -200838.011072
810.0 -200840.367886
820.0 -200842.729497
830.0 -200845.095861
840.0 -200847.466935
850.0 -200849.84268
860.0 -200852.223055
870.0 -200854.608021
880.0 -200856.997539
890.0 -200859.391573
900.0 -200861.790086
910.0 -200864.193043
920.0 -200866.600409
930.0 -200869.012149
940.0 -200871.428231
950.0 -200873.848622
960.0 -200876.273291
970.0 -200878.702205
980.0 -200881.135335
990.0 -200883.572651
1000.0 -200886.014123
1010.0 -200888.459722
1020.0 -200890.909421
1030.0 -200893.363191
1040.0 -200895.821007
1050.0 -200898.28284
1060.0 -200900.748665
1070.0 -200903.218457
1080.0 -200905.692189
1090.0 -200908.169838
1100.0 -200910.651378
1110.0 -200913.136787
1120.0 -200915.62604
1130.0 -200918.119115
1140.0 -200920.615988
1150.0 -200923.116637
1160.0 -200925.62104
1170.0 -200928.129176
1180.0 -200930.641023
1190.0 -200933.15656
1200.0 -200935.675766
1210.0 -200938.198621
1220.0 -200940.725105
1230.0 -200943.255197
1240.0 -200945.788879
1250.0 -200948.32613
1260.0 -200950.866933
1270.0 -200953.411267
1280.0 -200955.959116
1290.0 -200958.510459
1300.0 -200961.065279
1310.0 -200963.623559
1320.0 -200966.185281
1330.0 -200968.750426
1340.0 -200971.318979
1350.0 -200973.890922
1360.0 -200976.466239
1370.0 -200979.044912
1380.0 -200981.626925
1390.0 -200984.212263
1400.0 -200986.800909
1410.0 -200989.392847
1420.0 -200991.988062
1430.0 -200994.586538
1440.0 -200997.18826
1450.0 -200999.793213
1460.0 -201002.401381
1470.0 -201005.01275
1480.0 -201007.627306
1490.0 -201010.245033
1500.0 -201012.865917
1510.0 -201015.489944
1520.0 -201018.1171
1530.0 -201020.747371
1540.0 -201023.380743
1550.0 -201026.017202
1560.0 -201028.656736
1570.0 -201031.299329
1580.0 -201033.94497
1590.0 -201036.593644
1600.0 -201039.245339
1610.0 -201041.900042
1620.0 -201044.55774
1630.0 -201047.21842
1640.0 -201049.88207
1650.0 -201052.548677
1660.0 -201055.218229
1670.0 -201057.890713
1680.0 -201060.566117
1690.0 -201063.24443
1700.0 -201065.925639
1710.0 -201068.609733
1720.0 -201071.296699
1730.0 -201073.986527
1740.0 -201076.679203
1750.0 -201079.374718
1760.0 -201082.073059
1770.0 -201084.774215
1780.0 -201087.478176
1790.0 -201090.184929
1800.0 -201092.894465
1810.0 -201095.606771
1820.0 -201098.321838
1830.0 -201101.039654
1840.0 -201103.760208
1850.0 -201106.483491
1860.0 -201109.209491
1870.0 -201111.938199
1880.0 -201114.669603
1890.0 -201117.403694
1900.0 -201120.140461
1910.0 -201122.879895
1920.0 -201125.621984
1930.0 -201128.36672
1940.0 -201131.114092
1950.0 -201133.86409
1960.0 -201136.616705
1970.0 -201139.371927
1980.0 -201142.129747
1990.0 -201144.890154
2000.0 -201147.65314
2010.0 -201150.418694
2020.0 -201153.186809
2030.0 -201155.957473
2040.0 -201158.730679
2050.0 -201161.506416
2060.0 -201164.284677
2070.0 -201167.065451
2080.0 -201169.84873
2090.0 -201172.634505
2100.0 -201175.422768
2110.0 -201178.213508
2120.0 -201181.006719
2130.0 -201183.80239
2140.0 -201186.600514
2150.0 -201189.401082
2160.0 -201192.204085
2170.0 -201195.009515
2180.0 -201197.817364
2190.0 -201200.627623
2200.0 -201203.440284
2210.0 -201206.255339
2220.0 -201209.07278
2230.0 -201211.892598
2240.0 -201214.714786
2250.0 -201217.539335
2260.0 -201220.366238
2270.0 -201223.195487
2280.0 -201226.027074
2290.0 -201228.860991
2300.0 -201231.69723
2310.0 -201234.535784
2320.0 -201237.376646
2330.0 -201240.219806
2340.0 -201243.065259
2350.0 -201245.912996
2360.0 -201248.76301
2370.0 -201251.615294
2380.0 -201254.46984
2390.0 -201257.326642
2400.0 -201260.18569
2410.0 -201263.04698
2420.0 -201265.910503
2430.0 -201268.776252
2440.0 -201271.64422
2450.0 -201274.514401
2460.0 -201277.386786
2470.0 -201280.26137
2480.0 -201283.138145
2490.0 -201286.017105
2500.0 -201288.898242
2510.0 -201291.78155
2520.0 -201294.667023
2530.0 -201297.554652
2540.0 -201300.444433
2550.0 -201303.336357
2560.0 -201306.23042
2570.0 -201309.126613
2580.0 -201312.024931
2590.0 -201314.925366
2600.0 -201317.827914
2610.0 -201320.732567
2620.0 -201323.639318
2630.0 -201326.548163
2640.0 -201329.459093
2650.0 -201332.372104
2660.0 -201335.287189
2670.0 -201338.204342
2680.0 -201341.123556
2690.0 -201344.044826
2700.0 -201346.968145
2710.0 -201349.893508
2720.0 -201352.820908
2730.0 -201355.75034
2740.0 -201358.681797
2750.0 -201361.615274
2760.0 -201364.550766
2770.0 -201367.488265
2780.0 -201370.427766
2790.0 -201373.369265
2800.0 -201376.312754
2810.0 -201379.258228
2820.0 -201382.205681
2830.0 -201385.155109
2840.0 -201388.106505
2850.0 -201391.059864
2860.0 -201394.015179
2870.0 -201396.972447
2880.0 -201399.931661
2890.0 -201402.892816
2900.0 -201405.855906
2910.0 -201408.820926
2920.0 -201411.787871
2930.0 -201414.756735
2940.0 -201417.727514
2950.0 -201420.700201
2960.0 -201423.674792
2970.0 -201426.651282
2980.0 -201429.629664
2990.0 -201432.609935
3000.0 -201435.592089
3010.0 -201438.57612
3020.0 -201441.562025
3030.0 -201444.549797
3040.0 -201447.539432
